,,,,,,,,,,,,,,,,,,,,,,,,,,,,,,
ACCELEROMETER X (m/s²),ACCELEROMETER Y (m/s²),ACCELEROMETER Z (m/s²),GRAVITY X (m/s²),GRAVITY Y (m/s²),GRAVITY Z (m/s²),LINEAR ACCELERATION X (m/s²),LINEAR ACCELERATION Y (m/s²),LINEAR ACCELERATION Z (m/s²),GYROSCOPE X (rad/s),GYROSCOPE Y (rad/s),GYROSCOPE Z (rad/s),LIGHT (lux),MAGNETIC FIELD X (μT),MAGNETIC FIELD Y (μT),MAGNETIC FIELD Z (μT),ORIENTATION Z (azimuth °),ORIENTATION X (pitch °),ORIENTATION Y (roll °),PROXIMITY (i),SOUND LEVEL (dB),LOCATION Latitude : ,LOCATION Longitude : ,LOCATION Altitude ( m),LOCATION Altitude-google ( m),LOCATION Speed ( Kmh),LOCATION Accuracy ( m),LOCATION ORIENTATION (°),Satellites in range,Time since start in ms ,YYYY-MO-DD HH-MI-SS_SSS
0.3286,6.132,5.6411,0.3398,6.9979,6.8618,0.1266,0.2391,0.3894,0.0276,-0.0295,0.0236,12160,-51.08,-56.86,-0.52,126.49,-45.48,-2.52,5,61.809,23.548073,87.28982,90.32,NaN,0,13.832258,,13 / 17,5,2020-02-14 13:02:16:792
0.2458,7.2218,6.2671,0.374,7.0115,6.8462,-0.1633,-0.0005,-0.8893,0.0064,0.0457,-0.0254,12315,-51.02,-56.86,-0.15,126.63,-45.64,-3.13,5,65.01,23.548073,87.28982,90.32,NaN,0,13.832258,,15 / 20,505,2020-02-14 13:02:17:292
0.0239,6.7463,6.4733,0.2517,7.0136,6.8496,-0.1855,-0.0676,0.8814,-0.023,0.0108,-0.0297,12375,-50.72,-57.29,-0.21,127.05,-45.63,-2.17,5,64.23,23.548073,87.28982,90.32,NaN,0,13.832258,,15 / 20,1005,2020-02-14 13:02:17:792
0.6878,7.3983,6.4033,0.3783,7.136,6.7161,0.2853,0.4879,-1.2309,0.0052,0.0219,0.0236,12896,-51.05,-56.9,-0.36,126.01,-46.69,-3.22,5,66.302,23.548073,87.28982,90.32,NaN,0,13.832258,,15 / 19,1505,2020-02-14 13:02:18:292
2.3923,8.0696,2.3307,0.2169,7.2271,6.6251,0.005,0.5377,0.4849,-0.0724,0.0164,-0.0802,13019,-50.99,-57.62,-0.33,126.61,-47.14,-2.45,5,66.433,23.548073,87.28982,90.32,NaN,0,13.832258,,15 / 19,2005,2020-02-14 13:02:18:792
0.4398,7.3002,4.9435,0.0587,7.3941,6.4416,-1.2417,1.1686,-0.3647,-0.0198,-0.0531,0.1506,12432,-50.16,-60.36,0.58,129.14,-48.49,0.27,5,66.683,23.548073,87.28982,90.32,NaN,0,13.832258,,13 / 16,2505,2020-02-14 13:02:19:292
0.4511,9.5073,10.467,0.222,7.5335,6.2744,-0.3561,-0.1638,-1.9502,-0.0414,0.175,-0.1154,14190,-52.5,-59.19,0.58,125.53,-50.19,-2.03,5,64.019,23.548073,87.28982,90.32,NaN,0,13.832258,,13 / 16,3006,2020-02-14 13:02:19:793
-2.5138,6.2337,4.963,-0.812,7.6209,6.1182,1.0146,1.818,-2.8651,0.1413,-0.1754,-0.2876,12353,-45.78,-62.05,2.31,134.95,-51,7.56,5,64.52,23.548073,87.28982,90.32,NaN,0,13.832258,,15 / 19,3505,2020-02-14 13:02:20:292
1.1393,13.888,0.557,0.2591,7.786,5.9566,2.4491,3.4371,-2.119,-0.2442,-0.0008,0.0712,11247,-50.84,-59.55,2.17,126.39,-51.38,-2,5,65.791,23.548073,87.28982,90.32,NaN,0,13.832258,,15 / 19,4004,2020-02-14 13:02:20:791
0.8155,7.8798,7.4937,0.2472,7.6355,6.1488,0.8901,-0.554,0.2599,0.0604,0.039,0.1263,10407,-51.1,-61.12,3.69,127.58,-52.59,-1.31,5,64.506,23.548054,87.28984,90.32,NaN,15.7,13.832258,124.7,17 / 19,4505,2020-02-14 13:02:21:292
2.6584,13.8564,3.5428,0.5024,7.662,6.1002,-1.4352,-3.8519,3.1822,-0.3587,0.0828,0.0881,9637,-51.52,-60.19,5.39,126.04,-51.38,-4.71,5,64.572,23.548054,87.28984,90.32,NaN,15.7,13.832258,124.7,17 / 19,5005,2020-02-14 13:02:21:792
-2.2337,-2.9313,13.865,0.392,7.3911,6.4334,-1.4673,-4.004,6.1106,0.4801,-0.0312,0.1664,10167,-50.59,-58.69,3.82,127.64,-48.91,-3.49,5,67.212,23.548033,87.28988,90.32,NaN,19.84,13.832258,123.9,17 / 20,5505,2020-02-14 13:02:22:292
0.2819,8.3921,7.897,0.3999,7.7226,6.0309,0.0619,1.2374,-3.333,-0.0112,0.0193,-0.0346,9366,-51.24,-58.52,3.57,126.24,-51.06,-3.91,5,66.208,23.548033,87.28988,90.32,NaN,19.84,13.832258,123.9,17 / 20,6004,2020-02-14 13:02:22:791
3.0645,10.5293,1.7933,0.4333,7.689,6.0714,1.7274,0.4196,-3.145,-0.312,0.0318,-0.0023,8396,-51.35,-57.74,2.77,124.8,-51.63,-4.08,5,64.775,23.548008,87.289925,93.55,NaN,23.4,13.832258,122.7,16 / 19,6504,2020-02-14 13:02:23:291
3.0498,12.3941,-4.8211,0.1958,7.4778,6.3415,0.6623,3.0549,-4.0923,0.1422,-0.0193,-0.0614,8763,-52.46,-57.76,0.67,125.48,-49.69,-1.77,5,64.942,23.548008,87.289925,93.55,NaN,23.4,13.832258,122.7,16 / 19,7005,2020-02-14 13:02:23:792
0.9073,7.3826,0.5414,0.2426,7.3233,6.5178,0.4597,-0.0063,-1.725,0.7125,0.1062,0.1059,8679,-50.6,-57.98,1.18,126.62,-48.31,-2.13,5,65.681,23.547976,87.289986,93.55,NaN,23.4,17.290323,121.1,16 / 19,7505,2020-02-14 13:02:24:292
1.8981,6.5453,7.9568,0.0124,7.2369,6.618,0.7628,-1.3562,0.4191,0.2264,0.0054,-0.0162,9698,-49.41,-58.37,1.24,129.02,-47.31,-0.56,5,60.962,23.547976,87.289986,93.55,NaN,23.4,17.290323,121.1,16 / 19,8005,2020-02-14 13:02:24:792
0.5735,9.4764,8.154,0.0978,7.2843,6.5651,-0.3444,0.1183,-0.7535,-0.0007,0.112,-0.0095,10255,-49.59,-58,1.54,128.48,-47.97,-0.85,5,65.059,23.547953,87.29004,93.55,NaN,21.92,13.832258,120.5,15 / 19,8504,2020-02-14 13:02:25:291
0.938,8.3993,1.9566,0.0437,7.114,6.7498,0.003,-0.9135,1.6872,0.2405,0.0428,-0.0399,11020,-49.97,-58.33,1.19,128.94,-46.5,-0.37,5,64.53,23.547953,87.29004,93.55,NaN,21.92,13.832258,120.5,15 / 19,9004,2020-02-14 13:02:25:791
1.7225,7.0505,2.293,0.0333,7.4009,6.4339,0.53,1.1997,-3.0839,-0.0518,0.0123,-0.0961,10930,-48.36,-57.93,2.66,129.89,-49,-0.3,5,65.707,23.547924,87.290085,93.55,NaN,21.92,17.290323,120.2,15 / 19,9505,2020-02-14 13:02:26:292
1.5001,9.1507,5.5857,0.1214,7.2833,6.5657,0.7217,1.6553,-1.3822,0.3187,-0.0637,0.0831,11284,-47.16,-57.38,1.07,129.15,-47.96,-1.06,5,65.561,23.547924,87.290085,93.55,NaN,21.92,17.290323,120.2,15 / 19,10005,2020-02-14 13:02:26:792
0.6902,6.6927,7.5723,0.3104,7.1432,6.7119,-0.7596,0.2089,2.4282,-0.0907,-0.0201,0.0743,11799,-50.2,-57.59,0.87,127.31,-47.72,-2.57,5,66.097,23.547892,87.290146,90.32,NaN,23.4,13.832258,119.6,15 / 19,10505,2020-02-14 13:02:27:292
-1.0912,2.5197,13.6499,0.2315,7.0966,6.7642,-0.12,-2.5904,2.6501,-0.0182,0.0458,-0.0154,12280,-49.99,-57.31,1.26,127.83,-46.36,-1.96,5,64.717,23.547892,87.290146,90.32,NaN,23.4,13.832258,119.6,15 / 19,11005,2020-02-14 13:02:27:792
-1.017,8.1412,13.3242,0.1676,6.9624,6.9042,-0.0837,-0.7032,3.308,0.0302,0.1015,-0.0653,12299,-50.1,-57.46,0.92,128.65,-45.23,-1.39,5,65.234,23.547861,87.2902,90.32,NaN,22.46,13.832258,119.2,15 / 17,11505,2020-02-14 13:02:28:292
1.9496,9.6265,-8.7498,0.0621,7.0067,6.8609,-0.4243,-0.6337,-0.8082,-0.1237,-0.0419,-0.0022,11359,-49.27,-57.67,1.12,129.3,-46.69,-0.65,5,64.943,23.547861,87.2902,90.32,NaN,22.46,13.832258,119.2,15 / 17,12005,2020-02-14 13:02:28:792
-1.4099,6.288,7.9924,-0.0494,7.0453,6.8214,0.1726,-1.319,2.0504,-0.2112,0.043,-0.1337,12208,-50.52,-57.63,0.25,127.63,-47.08,-0.28,5,65.951,23.547832,87.29025,90.32,NaN,20.38,13.832258,118.7,17 / 19,12506,2020-02-14 13:02:29:293
-2.6874,3.213,7.5215,-0.0818,7.0558,6.8103,0.5492,0.9718,0.168,0.0099,0.0644,-0.009,12400,-49.6,-58.66,1,130.12,-46.01,0.69,5,65.235,23.547832,87.29025,90.32,NaN,20.38,13.832258,118.7,17 / 19,13005,2020-02-14 13:02:29:792
2.5197,4.2891,9.4655,0.0967,7.1108,6.7526,0.2815,2.5132,-4.3736,0.2104,-0.0845,0.0516,11960,-50.47,-57.82,-0.1,128.26,-46.48,-0.82,5,66.027,23.547804,87.2903,93.55,NaN,21.96,13.832258,121.8,12 / 14,13506,2020-02-14 13:02:30:293
1.1084,10.6009,3.4361,0.1702,7.1168,6.7448,0.3586,0.2152,1.308,0.5195,0.0272,0.0063,12149,-50.89,-58.38,1.06,127.53,-46.91,-1.81,5,65.504,23.547804,87.2903,93.55,NaN,21.96,13.832258,121.8,12 / 14,14004,2020-02-14 13:02:30:791
0.0561,10.9936,1.4253,0.0407,7.2997,6.5486,0.4067,1.9854,-3.7734,0.345,0.0497,-0.0372,12421,-49.39,-58.45,0.89,130.09,-45.4,-0.3,5,64.778,23.547764,87.29035,93.55,NaN,23.69,13.832258,119,17 / 20,14505,2020-02-14 13:02:31:292
-1.2643,1.532,18.0961,0.0658,7.284,6.5658,-0.6077,-2.2895,6.0379,-0.5032,-0.0531,-0.0213,12092,-49.68,-58.82,0.83,128.57,-47.97,-0.57,5,65.014,23.547764,87.29035,93.55,NaN,23.69,13.832258,119,17 / 20,15005,2020-02-14 13:02:31:792
-1.011,2.7155,18.2544,0.2756,7.2148,6.6363,-0.3771,-3.7643,5.1996,0.5576,0.0638,0.0661,12548,-50.5,-57.98,1.24,127.59,-47.37,-2.38,5,66.85,23.54774,87.290436,96.77,NaN,24.8,10.374194,121,16 / 19,15505,2020-02-14 13:02:32:292
-0.9721,6.109,7.2342,0.1159,7.0036,6.8634,-1.1195,0.0804,0.7438,0.0465,-0.1088,0.0188,12120,-49.79,-58.35,1.26,129.75,-44.39,-0.91,5,67.335,23.54774,87.290436,96.77,NaN,24.8,10.374194,121,16 / 19,16005,2020-02-14 13:02:32:792
-3.3273,-0.5589,22.9024,0.1725,7.1154,6.7462,-0.7395,-5.8896,4.7259,0.5059,-0.03,0.0455,11884,-49.5,-58.23,1.25,129.03,-46.52,-1.46,5,67.731,23.547709,87.29048,93.55,NaN,23.29,10.374194,122.6,16 / 19,16505,2020-02-14 13:02:33:292
-1.5487,1.7042,14.2197,0.3095,6.8825,6.9789,-0.3767,-2.6334,3.6026,-0.4737,0.0047,-0.0232,10458,-50.19,-57.69,1.71,128.23,-46.69,-2.87,5,65.254,23.547709,87.29048,93.55,NaN,23.29,10.374194,122.6,16 / 19,17005,2020-02-14 13:02:33:792
0.0332,10.8716,5.8943,0.3631,6.9843,6.8745,0.5085,3.0073,-3.3621,0.6293,-0.0821,0.1047,11593,-50,-57.83,2.71,129.28,-45.41,-3.02,5,63.872,23.54768,87.29054,90.32,NaN,21.64,10.374194,121.8,16 / 19,17505,2020-02-14 13:02:34:292
-0.7567,5.6213,10.7774,0.4475,7.0814,6.7693,-0.2136,-1.3842,5.6142,-0.0555,0.0309,0.0356,11674,-49.74,-56.98,1.98,128.78,-44.47,-3.07,5,66.801,23.54768,87.29054,90.32,NaN,21.64,10.374194,121.8,16 / 19,18004,2020-02-14 13:02:34:791
0.0883,6.8335,10.3809,0.1899,7.233,6.6196,0.2365,-0.2226,1.5848,0.032,0.0246,-0.0839,12185,-50.59,-56.8,0.23,127.16,-45.65,-1.9,5,64.415,23.547647,87.2906,93.55,NaN,21.74,10.374194,120.5,17 / 20,18505,2020-02-14 13:02:35:292
1.2454,12.3437,-0.0376,0.0702,7.3339,6.5099,-1.2903,-1.5473,2.4857,0.4422,0.016,-0.0005,11727,-50.56,-58.35,1.17,127.29,-48.4,-0.62,5,66.041,23.547647,87.2906,93.55,NaN,21.74,10.374194,120.5,17 / 20,19005,2020-02-14 13:02:35:792
-1.2348,3.0828,11.7453,0.1192,7.0867,6.7775,1.2697,1.6997,-3.7039,-0.2263,-0.0034,0.0491,12307,-49.78,-57.87,1.33,128.78,-46.27,-1.01,5,66.424,23.547615,87.29066,93.55,NaN,24.01,10.374194,119,17 / 20,19505,2020-02-14 13:02:36:292
-0.8869,11.6886,1.3203,0.0122,7.2416,6.6128,-0.131,-5.5266,7.41,0.3446,0.1554,-0.048,13410,-49.65,-56.91,0.12,126.3,-48.23,-1.95,5,67.314,23.547615,87.29066,93.55,NaN,24.01,10.374194,119,17 / 20,20004,2020-02-14 13:02:36:791
-2.986,7.7976,9.4342,-0.402,7.1087,6.7436,1.0327,0.1433,-4.8267,0.2693,-0.0774,-0.0868,13411,-48.42,-59.35,0.49,132.16,-45.15,3.02,5,66.681,23.547588,87.2907,90.32,NaN,24.26,10.374194,119.3,18 / 20,20505,2020-02-14 13:02:37:292
-5.9841,-3.9579,24.1395,0.2449,7.2572,6.5911,-1.4063,-4.1303,3.8932,-0.3945,0.1368,0.058,12072,-49.23,-58.37,1.11,128.08,-47.73,-2.13,5,67.405,23.547588,87.2907,90.32,NaN,24.26,10.374194,119.3,18 / 20,21004,2020-02-14 13:02:37:791
1.1822,9.9514,8.0449,-0.1521,6.7644,7.0986,0.205,1.8534,-2.3326,-0.3744,-0.0797,-0.0963,11550,-49.86,-58.82,0.93,131.46,-43.61,1.23,5,67.347,23.54755,87.29073,90.32,NaN,22.72,10.374194,121.4,15 / 17,21505,2020-02-14 13:02:38:292
1.1599,15.8169,-6.8999,0.094,6.6821,7.1771,2.4675,0.6651,-5.7966,0.2653,-0.06,0.15,10477,-50.55,-59.43,2.63,130.04,-45.84,-0.59,5,65.784,23.54755,87.29073,90.32,NaN,22.72,10.374194,121.4,15 / 17,22005,2020-02-14 13:02:38:792
-3.534,7.5683,8.2854,0.1527,7.1538,6.706,-0.4337,2.8076,-3.8765,0.4379,0.1258,-0.0225,11644,-50.85,-58.98,2.67,129.24,-46.84,-1.3,5,67.384,23.547518,87.29078,90.32,NaN,20.38,10.374194,123.3,17 / 19,22505,2020-02-14 13:02:39:292
-4.6134,3.7784,14.6843,-0.2185,7.0279,6.8361,1.2896,3.5023,0.1116,-0.3428,-0.0399,-0.2068,11739,-47.61,-60.19,2.08,132.81,-45.78,1.83,5,66.099,23.547518,87.29078,90.32,NaN,20.38,10.374194,123.3,17 / 19,23005,2020-02-14 13:02:39:792
3.1941,8.497,5.4664,0.551,7.1878,6.6485,-0.6324,-1.6085,1.0504,0.0635,0.0652,0.1955,10684,-49.93,-58.13,3.02,127.64,-47.13,-4.74,5,66.707,23.547491,87.29083,90.32,NaN,22.54,13.832258,122.4,17 / 19,23504,2020-02-14 13:02:40:291
0.2922,13.8458,10.4312,0.4313,7.0251,6.8287,-0.7492,-0.98,-4.9706,0.1733,0.0429,-0.0126,12536,-49.67,-58.31,2.74,128.86,-45.76,-3.61,5,67.691,23.547491,87.29083,90.32,NaN,22.54,13.832258,122.4,17 / 19,24006,2020-02-14 13:02:40:793
0.066,5.3477,7.9954,0.33,7.1006,6.756,-0.6136,2.595,-1.3597,0.5103,0.1061,-0.0873,11178,-49.38,-58.62,3.66,130.2,-46.31,-3.42,5,64.923,23.547457,87.290886,90.32,NaN,24.12,13.832258,123.3,16 / 18,24505,2020-02-14 13:02:41:292
2.4735,4.7412,8.9693,0.3992,7.3641,6.4639,-2.0303,-0.4571,2.9012,0.2153,-0.0031,-0.0544,10301,-49.47,-57.95,2.81,127.95,-48.67,-3.53,5,67.061,23.547457,87.290886,90.32,NaN,24.12,13.832258,123.3,16 / 18,25004,2020-02-14 13:02:41:791
0.5096,1.5427,5.4499,0.4945,7.0116,6.8384,-1.7347,-5.2609,7.4267,-0.5985,0.1966,-0.0624,9252,-51.03,-56.81,1.54,127.15,-45.64,-4.14,5,66.731,23.547422,87.290955,90.32,NaN,25.67,17.290323,120.8,17 / 19,25504,2020-02-14 13:02:42:291
2.0554,7.7066,8.8471,0.1696,6.9662,6.9002,-1.3079,1.7038,-0.7782,-0.1345,-0.0889,0.0621,9521,-50.59,-57.48,0.95,127.45,-46.07,-1.87,5,66.032,23.547422,87.290955,90.32,NaN,25.67,17.290323,120.8,17 / 19,26005,2020-02-14 13:02:42:792
-4.4916,5.6477,9.447,0.2182,7.276,6.5714,-2.2841,3.1218,-3.9587,-0.0018,0.1382,-0.1076,10502,-52.15,-57.29,1.28,125.92,-47.9,-1.9,5,64.501,23.5474,87.29099,90.32,NaN,24.08,17.290323,120,17 / 19,26505,2020-02-14 13:02:43:292
0.5236,10.3346,11.5609,0.0671,6.9596,6.9087,-0.5201,0.5774,1.0494,0.0468,0.0177,0.0373,11568,-50.47,-57.53,0.7,129.5,-45.21,-0.56,5,67.229,23.5474,87.29099,90.32,NaN,24.08,17.290323,120,17 / 19,27005,2020-02-14 13:02:43:792
-0.5352,7.9455,17.1171,0.0758,7.2282,6.627,-0.2956,0.9632,5.6434,0.1947,0.066,-0.0116,11805,-50.26,-57.5,0.51,127.83,-47.48,-0.66,5,66.472,23.547373,87.291046,90.32,NaN,25.52,17.290323,119.6,18 / 20,27505,2020-02-14 13:02:44:292
1.2101,6.4355,-0.2411,-0.0369,7.0939,6.771,0.6648,-0.6539,-0.4406,0.0201,0.0005,-0.0209,11769,-50.33,-57.74,0.59,129.25,-46.45,0.26,5,67.267,23.547373,87.291046,90.32,NaN,25.52,17.290323,119.6,18 / 20,28005,2020-02-14 13:02:44:792
-3.0956,-2.3108,19.3132,0.1268,7.0673,6.7976,0.0191,-1.5262,-1.1411,-0.6698,-0.0521,-0.0924,10840,-50.71,-57.51,1.75,128.85,-46.64,-0.29,5,66.324,23.547333,87.29111,90.32,NaN,27.25,17.290323,119.9,18 / 20,28505,2020-02-14 13:02:45:292
2.5284,15.6247,-2.9975,0.0888,7.3431,6.4994,-0.6693,2.443,-2.4634,0.1793,-0.0719,-0.0059,10351,-50.09,-58.03,1.84,128.25,-48.49,-0.78,5,64.893,23.547333,87.29111,90.32,NaN,27.25,17.290323,119.9,18 / 20,29005,2020-02-14 13:02:45:792
2.4566,8.7957,-4.7796,-0.024,6.7795,7.0858,0.0621,1.086,-0.9005,0.0511,0.048,-0.0151,8482,-49.78,-58.29,0.29,130.05,-43.73,0.19,5,66.383,23.547297,87.29118,87.1,NaN,27.18,13.832258,119.5,17 / 19,29505,2020-02-14 13:02:46:292
-0.4032,2.7853,8.5675,0.0456,6.4039,7.4269,1.1016,0.0449,-1.4509,-0.1386,-0.0463,0.0195,8655,-49.73,-58.3,0.69,131.6,-41.21,0.18,5,63.707,23.547297,87.29118,87.1,NaN,27.18,13.832258,119.5,17 / 19,30004,2020-02-14 13:02:46:791
-0.7869,3.9162,8.6882,0.2522,6.1045,7.6709,-2.6759,-3.5646,13.4849,-1.1012,-0.0096,0.0618,12191,-50.05,-57.12,-1.41,130.43,-40.07,-0.69,5,59.211,23.547277,87.29124,100,NaN,17.68,13.832258,121.8,18 / 20,30505,2020-02-14 13:02:47:292
13.1528,-14.1714,38.0865,0.6192,5.9245,7.7902,4.4241,16.6018,-24.9084,4.3939,-0.272,0.6402,9666,-50.67,-58.92,4.47,132.57,-37.17,-4.54,5,66.577,23.547277,87.29124,100,NaN,17.68,13.832258,121.8,18 / 20,31005,2020-02-14 13:02:47:792
1.849,8.2748,6.0313,0.4743,6.0361,7.7143,-1.2387,-0.8786,1.4104,0.1073,0.0637,0.2022,12804,-52.65,-55.65,1,128.91,-37.99,-3.52,5,63.099,23.547264,87.29127,96.77,NaN,10.51,13.832258,123.8,16 / 18,31505,2020-02-14 13:02:48:292
0.8536,3.3276,14.3114,0.0765,5.2877,8.2586,-0.317,-2.3592,2.5824,-0.0698,-0.0384,0.0076,12838,-51.51,-56.54,-1.48,131.44,-34.7,-0.79,5,56.952,23.547264,87.29127,96.77,NaN,10.51,13.832258,123.8,16 / 18,32004,2020-02-14 13:02:48:791
-1.0323,6.4458,6.9999,-0.0057,5.4409,8.1589,-0.3182,3.0356,-3.1206,0.1486,0.0689,-0.0927,11478,-50.64,-57.57,0.08,133.43,-33.7,0.04,5,58.463,23.547253,87.29128,100,NaN,6.7,13.832258,108.7,16 / 18,32505,2020-02-14 13:02:49:292
-0.1068,6.3526,5.7977,0.0293,5.9222,7.8164,0.7895,1.0255,-1.3818,0.0055,-0.0933,0.13,11457,-50.66,-57.53,0.84,132.82,-37.07,0.69,5,54.185,23.547253,87.29128,100,NaN,6.7,13.832258,108.7,16 / 18,33005,2020-02-14 13:02:49:792
0.2755,7.3182,5.3556,0.2517,6.0309,7.7288,0.3635,0.9493,-0.4377,0.049,0.0223,0.0062,10851,-51.23,-57.03,1.15,131.13,-37.95,-1.87,5,58.495,23.547253,87.29128,100,NaN,6.7,13.832258,108.7,18 / 20,33505,2020-02-14 13:02:50:292
