,,,,,,,,,,,,,,,,,,,,,,,,,,,,,,
ACCELEROMETER X (m/s²),ACCELEROMETER Y (m/s²),ACCELEROMETER Z (m/s²),GRAVITY X (m/s²),GRAVITY Y (m/s²),GRAVITY Z (m/s²),LINEAR ACCELERATION X (m/s²),LINEAR ACCELERATION Y (m/s²),LINEAR ACCELERATION Z (m/s²),GYROSCOPE X (rad/s),GYROSCOPE Y (rad/s),GYROSCOPE Z (rad/s),LIGHT (lux),MAGNETIC FIELD X (μT),MAGNETIC FIELD Y (μT),MAGNETIC FIELD Z (μT),ORIENTATION Z (azimuth °),ORIENTATION X (pitch °),ORIENTATION Y (roll °),PROXIMITY (i),SOUND LEVEL (dB),LOCATION Latitude : ,LOCATION Longitude : ,LOCATION Altitude ( m),LOCATION Altitude-google ( m),LOCATION Speed ( Kmh),LOCATION Accuracy ( m),LOCATION ORIENTATION (°),Satellites in range,Time since start in ms ,YYYY-MO-DD HH-MI-SS_SSS
-1.0495,6.3621,7.698,-0.2184,6.9603,6.9048,-0.1892,-0.2035,0.304,0.0109,0.0157,0.0042,3581,-8.35,-70.54,11.11,172.49,-45.21,1.81,5,47.424,23.550222,87.29073,106.45,NaN,0,10.374194,,28 / 37,3,2020-02-14 13:00:17:134
0.2544,7.1026,5.8811,-0.2117,6.9776,6.8875,0.1309,0.0233,0.1626,0.0005,0.0055,-0.013,3640,-8,-70.7,10.68,172.44,-45.34,1.65,5,49.299,23.550222,87.29073,106.45,NaN,0,10.374194,,28 / 37,503,2020-02-14 13:00:17:634
-0.2344,7.0571,6.0901,-0.2682,6.9799,6.8832,0.1447,-0.0571,-0.6086,0.0024,-0.0002,0.0061,3651,-7.98,-70.53,10.66,172.56,-45.34,2.22,5,47.624,23.550222,87.29073,106.45,NaN,0,10.374194,,28 / 37,1003,2020-02-14 13:00:18:134
-0.3762,7.2121,6.1732,-0.2316,6.9832,6.8813,-0.2979,0.2571,-0.2757,0.0283,0.0028,-0.0225,3714,-8.09,-70.67,10.91,172.53,-45.33,2.07,5,49.959,23.550222,87.29073,106.45,NaN,0,10.374194,,28 / 37,1504,2020-02-14 13:00:18:635
0.0071,7.7784,7.4544,-0.2012,6.9927,6.8725,-0.0455,0.6732,-0.7743,0.0345,0.0013,0.0297,3614,-8.22,-70.67,11.24,172.43,-45.48,1.68,5,60.711,23.550222,87.29073,106.45,NaN,0,10.374194,,28 / 37,2004,2020-02-14 13:00:19:135
-0.4347,6.5074,7.568,0.106,7.169,6.6907,0.153,1.2568,-0.8813,-0.0302,0.064,0.0703,3803,-9.85,-71.22,11.21,169.78,-46.9,-0.91,5,63.962,23.550222,87.29073,106.45,NaN,0,10.374194,,28 / 37,2504,2020-02-14 13:00:19:635
0.4262,7.8696,4.2133,-0.3616,7.2758,6.5652,0.5747,-0.2998,1.0854,-0.0666,-0.1156,-0.4438,3843,-8.22,-70.7,10.94,172.03,-47.82,0.87,5,63.957,23.550213,87.29072,109.68,NaN,2.27,10.374194,196.4,28 / 37,3004,2020-02-14 13:00:20:135
-1.9982,7.7791,0.1932,0.0063,7.4058,6.4285,1.2308,-1.039,4.4196,0.2045,0.1199,0.422,4773,-6.74,-70.47,10.4,172.53,-49.04,-0.06,5,63.685,23.550213,87.29072,109.68,NaN,2.27,10.374194,196.4,28 / 37,3504,2020-02-14 13:00:20:635
-1.0562,5.2298,12.3188,0.4797,7.6754,6.0852,2.1794,3.1228,-3.3966,0.0396,0.0949,-0.0359,4449,-10.8,-71.09,11.83,167.39,-50.72,-4.81,5,64.156,23.550196,87.29071,109.68,NaN,7.67,10.374194,195.2,28 / 37,4004,2020-02-14 13:00:21:135
2.9351,13.9665,-3.8517,0.2202,7.5396,6.2671,-0.1593,-1.2016,2.4722,-0.0991,0.1102,0.1364,4664,-8.59,-70.8,10.96,170.23,-50.71,-0.96,5,65.639,23.550196,87.29071,109.68,NaN,7.67,10.374194,195.2,28 / 37,4504,2020-02-14 13:00:21:635
-0.272,7.9573,5.1149,0.1411,7.6547,6.1282,0.9276,1.5342,-1.5368,0.045,-0.0519,0.0148,5199,-9.3,-70.9,11.12,169.83,-52.32,-1.61,5,66.169,23.55016,87.2907,109.68,NaN,13.86,10.374194,194.4,29 / 37,5004,2020-02-14 13:00:22:135
1.2025,12.1868,-1.6226,0.1979,7.8085,5.9295,-1.1006,-3.2251,2.4259,-0.0663,-0.0249,-0.0189,5414,-9.06,-71.02,11.37,170.03,-51.04,-1.65,5,65.942,23.55016,87.2907,109.68,NaN,13.86,10.374194,194.4,29 / 37,5504,2020-02-14 13:00:22:635
-0.2605,11.291,2.3334,0.1591,7.7297,6.0329,-0.0063,-2.9186,4.149,-0.2607,-0.0511,-0.0072,3821,-9.07,-71.03,12.07,170.03,-52.02,-1.51,5,66.495,23.55012,87.29069,109.68,NaN,16.34,10.374194,192,29 / 37,6004,2020-02-14 13:00:23:135
-0.4084,3.9978,13.5359,-0.0056,7.6298,6.1609,-0.1226,0.0981,-0.9181,0.1966,0.0076,-0.1864,2642,-8.51,-71.05,12.23,170.56,-50.35,-0.28,5,67.347,23.55012,87.29069,109.68,NaN,16.34,10.374194,192,29 / 37,6504,2020-02-14 13:00:23:635
0.4057,4.2553,9.5685,0.0146,7.6872,6.0891,0.5875,-1.9651,1.1016,-0.0484,-0.0519,-0.0765,3567,-8.44,-70.83,12.26,171.45,-51.14,-0.43,5,68.401,23.550076,87.29068,109.68,NaN,4.86,10.374194,194,29 / 37,7005,2020-02-14 13:00:24:136
-0.7892,8.4078,5.0886,-0.0967,7.6908,6.0837,0.468,4.3483,-4.4056,0.4725,0.0426,-0.0779,4135,-7.48,-68.42,13.42,172.41,-51.35,-0.07,5,68.143,23.550076,87.29068,109.68,NaN,4.86,10.374194,194,29 / 37,7504,2020-02-14 13:00:24:635
2.213,9.275,0.8461,-0.1642,7.6124,6.1802,1.1111,0.7779,-0.9279,-0.1952,0.0004,-0.1163,5842,-7.52,-72.27,11.24,171.89,-50.92,1.52,5,68.684,23.549978,87.29064,112.9,NaN,25.7,10.374194,196.1,29 / 37,8003,2020-02-14 13:00:25:134
-1.9918,-1.4786,14.5786,-0.2877,7.2306,6.6186,-1.4199,-6.2739,2.3454,0.19,0.07,-0.0237,4878,-6.38,-70.82,11.54,174.51,-47.5,2.49,5,68.428,23.549978,87.29064,112.9,NaN,25.7,10.374194,196.1,29 / 37,8504,2020-02-14 13:00:25:635
0.2656,9.9313,3.6781,-0.2538,7.3865,6.4456,0.4493,-0.2862,-0.1536,0.217,-0.0352,0.0026,3897,-5.76,-69.94,11.54,174.3,-48.62,2.22,5,67.991,23.549923,87.29062,109.68,NaN,26.96,10.374194,197.8,29 / 37,9004,2020-02-14 13:00:26:135
2.9305,13.1557,-1.1424,-0.391,7.5255,6.2757,-0.1794,2.7619,-3.6422,0.4841,0.0153,-0.0814,4425,-3.66,-69.8,11.71,176.58,-50.12,3.57,5,67.538,23.549923,87.29062,109.68,NaN,26.96,10.374194,197.8,29 / 37,9503,2020-02-14 13:00:26:634
-3.9799,9.2569,4.3072,-0.197,7.376,6.4595,-0.1386,-1.9858,0.6227,-0.1106,-0.0674,-0.0078,5782,-3.54,-69.69,10.87,176.33,-48.92,2.65,5,67.356,23.54986,87.29059,109.68,NaN,28.33,10.374194,202,29 / 37,10004,2020-02-14 13:00:27:135
3.117,11.9084,0.6875,-0.29,7.4738,6.3426,1.2393,2.1062,-5.7671,0.2521,0.0109,-0.0121,4923,-2.33,-69.35,10.96,178.28,-49.28,2.07,5,67.721,23.54986,87.29059,109.68,NaN,28.33,10.374194,202,29 / 37,10504,2020-02-14 13:00:27:635
2.1477,9.2449,-0.5213,-0.0998,7.4121,6.4204,1.1588,1.2025,-1.216,-0.1128,-0.0177,0.0191,4913,-1.64,-69.18,10.35,178,-49.1,0.89,5,68.476,23.549795,87.29056,109.68,NaN,28.84,10.374194,204.2,26 / 37,11005,2020-02-14 13:00:28:136
0.3889,5.9589,6.9226,-0.0302,7.1795,6.6801,-0.0184,-1.4948,1.6809,-0.2817,0.0336,-0.0485,5119,-2.47,-68.77,11.2,177.98,-47.07,0.29,5,68.119,23.549795,87.29056,109.68,NaN,28.84,10.374194,204.2,26 / 37,11504,2020-02-14 13:00:28:635
-0.9824,4.847,10.8396,0.2263,7.1138,6.7463,-0.141,-1.8055,4.7531,0.0099,-0.1103,0.1157,5516,-3.02,-67.94,9.36,176.45,-46.5,-1.92,5,68.11,23.549732,87.29053,109.68,NaN,28.26,10.374194,206.5,27 / 37,12004,2020-02-14 13:00:29:135
-3.0611,0.3452,18.8941,0.3357,7.3423,6.4922,1.1468,0.724,0.8062,0.4825,-0.1426,0.0919,5154,-1.49,-68.6,8.37,178.72,-45.02,-1.52,5,67.322,23.549732,87.29053,109.68,NaN,28.26,10.374194,206.5,27 / 37,12504,2020-02-14 13:00:29:635
0.3478,10.1573,2.4699,0.3535,7.1645,6.687,-0.2518,-3.3219,4.6947,-0.0814,0.0028,0.0655,5626,-1.39,-69.5,8.45,178.61,-44.95,-2.3,5,66.729,23.549671,87.29049,109.68,NaN,27.68,10.374194,208.3,28 / 37,13004,2020-02-14 13:00:30:135
0.2769,8.737,2.3044,0.3362,7.244,6.6017,1.3278,-0.2811,-1.8514,-0.3327,-0.1493,-0.02,6464,-1.58,-69.12,8.63,177.35,-47.62,-2.92,5,66.201,23.549671,87.29049,109.68,NaN,27.68,10.374194,208.3,28 / 37,13504,2020-02-14 13:00:30:635
0.8119,6.7523,7.8523,0.4606,6.9343,6.9191,-0.0474,-2.9691,5.3897,0.3805,0.0931,0.0788,6753,-2.88,-69.55,8.78,176.31,-45,-3.81,5,67.249,23.5496,87.29045,109.68,NaN,29.02,10.374194,207.9,28 / 37,14004,2020-02-14 13:00:31:135
-0.5845,6.2341,3.4999,0.2004,7.0642,6.7991,0.0788,0.3942,4.1675,-0.1117,-0.0436,0.0499,6571,-1.27,-69.93,9.27,178.84,-45.66,-0.78,5,67.885,23.5496,87.29045,109.68,NaN,29.02,10.374194,207.9,28 / 37,14503,2020-02-14 13:00:31:634
-1.0493,3.6968,11.3076,0.2273,7.1698,6.6867,1.2763,3.9784,-3.5444,-0.3644,-0.0824,-0.0738,6201,-1.68,-68.87,9.54,177.5,-47.88,-1.97,5,68.39,23.549543,87.290405,106.45,NaN,27.25,10.374194,209.3,28 / 37,15003,2020-02-14 13:00:32:134
2.5637,6.4104,6.3197,0.2877,7.2042,6.6473,0.7888,1.8095,-2.7355,-0.0883,0.0084,-0.0303,6394,-2.09,-68.96,9.32,177.44,-47.28,-2.48,5,66.616,23.549543,87.290405,106.45,NaN,27.25,10.374194,209.3,28 / 37,15503,2020-02-14 13:00:32:634
-1.6885,8.0459,0.591,-0.0501,6.9685,6.8998,0.1679,-0.6064,3.4656,0.3372,0.0102,-0.033,5479,-0.83,-67.75,8.27,178.99,-45.28,0.42,5,65.667,23.549477,87.29037,106.45,NaN,28.87,10.374194,207.7,28 / 37,16004,2020-02-14 13:00:33:135
1.1637,10.3299,3.3497,-0.1894,6.9239,6.9422,-0.0044,2.7235,-1.9054,-0.5852,-0.0237,-0.1097,5974,0.7,-67.59,7.9,181.14,-46.56,0.34,5,64.984,23.549477,87.29037,106.45,NaN,28.87,10.374194,207.7,28 / 37,16504,2020-02-14 13:00:33:635
2.2108,5.9971,9.3194,-0.015,7.2184,6.6381,0.8478,0.8478,-0.3606,-0.0326,-0.1142,0.0279,6569,1.84,-68.12,9.1,182.2,-47.4,0.13,5,65.31,23.549412,87.29034,106.45,NaN,29.95,10.374194,207.6,28 / 37,17003,2020-02-14 13:00:34:134
-2.3056,-0.1217,14.8776,0.0999,7.0199,6.847,-0.836,-2.9063,4.2766,0.489,-0.2366,0.1438,6882,1.24,-68.4,8.54,181.1,-44.85,0.3,5,67.356,23.549412,87.29034,106.45,NaN,29.95,10.374194,207.6,28 / 37,17505,2020-02-14 13:00:34:636
2.2256,12.5862,-1.7514,0.292,6.9538,6.9087,0.7363,1.4912,-5.316,-0.3194,-0.0234,-0.0284,6783,1.01,-68.3,7.37,180.76,-45.16,-2.42,5,66.911,23.549347,87.2903,103.23,NaN,30.78,10.374194,210.1,28 / 37,18004,2020-02-14 13:00:35:135
3.4199,7.9817,3.8264,0.4589,7.0254,6.8267,1.7479,-0.4735,-2.6033,0.0979,0.1094,-0.045,6321,0.45,-68.97,7.95,179.51,-44.94,-3.31,5,67.534,23.549347,87.2903,103.23,NaN,30.78,10.374194,210.1,28 / 37,18504,2020-02-14 13:00:35:635
-1.175,-3.7318,21.9752,0.3652,7.0964,6.7586,-0.5626,-4.7556,3.768,-0.4937,0.0092,-0.0632,4768,-0.78,-69.26,7.84,178.56,-44.33,-2.73,5,66.457,23.54928,87.290245,103.23,NaN,30.74,10.374194,210.4,15 / 19,19004,2020-02-14 13:00:36:135
0.1659,0.896,11.7505,0.2352,6.901,6.9635,-0.0534,-3.4577,7.3806,0.0967,0.0828,-0.0378,4486,-0.31,-69.09,7.87,179.72,-44.73,-1.93,5,64.053,23.54928,87.290245,103.23,NaN,30.74,10.374194,210.4,15 / 19,19504,2020-02-14 13:00:36:635
-1.7576,1.927,10.6241,0.1151,6.6886,7.1708,-1.0479,-4.7519,3.6548,-0.554,-0.0938,-0.0668,4003,0.35,-69.47,7.11,179.88,-43,-0.92,5,65.752,23.549213,87.29021,103.23,NaN,30.74,10.374194,210.4,16 / 19,20007,2020-02-14 13:00:37:138
-0.5408,2.9547,15.5689,0.3704,7.0523,6.8043,-1.1032,0.2857,-0.2764,0.383,-0.0065,0.1124,3472,-0.8,-69.45,8.49,178.55,-44.09,-2.83,5,66.516,23.549213,87.29021,103.23,NaN,30.74,10.374194,210.4,16 / 19,20504,2020-02-14 13:00:37:635
0.724,11.067,0.2224,0.2725,6.7849,7.0754,-0.8641,1.3408,-2.0968,-0.4081,-0.0071,0.0261,4056,-1.33,-69.51,8.49,178.66,-43.78,-2.21,5,66.013,23.549152,87.29017,106.45,NaN,30.49,10.374194,209.5,17 / 21,21004,2020-02-14 13:00:38:135
1.7669,4.9239,8.7069,0.3221,6.9195,6.9417,0.654,2.7146,-3.5528,0.0355,0.0892,-0.0287,3825,-1.76,-69.63,8.89,177.53,-44.88,-2.66,5,65.713,23.549152,87.29017,106.45,NaN,30.49,10.374194,209.5,17 / 21,21503,2020-02-14 13:00:38:634
-2.7551,-1.6544,23.5985,0.0211,6.6952,7.1655,-1.7848,-2.8803,4.8773,-0.5475,0.1026,-0.1409,4373,-1.18,-69.19,9.06,178.96,-43.06,-0.17,5,65.782,23.54909,87.29013,106.45,NaN,28.73,10.374194,207.6,15 / 20,22003,2020-02-14 13:00:39:134
-6.7773,-2.3343,13.2478,-0.0314,6.855,7.0127,-1.6683,0.5824,0.6298,-0.6493,0.2152,-0.154,5393,-0.98,-69.64,10.24,178.98,-42.62,-0.2,5,67.227,23.54909,87.29013,106.45,NaN,28.73,10.374194,207.6,15 / 20,22504,2020-02-14 13:00:39:635
-0.048,0.3937,16.8827,0.0914,6.9033,6.9647,-0.032,-2.8582,2.6045,-0.2512,-0.0009,-0.0109,6167,-0.47,-69.6,9.29,179.88,-44.74,-0.75,5,67.279,23.549025,87.29009,106.45,NaN,29.59,10.374194,208.3,14 / 20,23004,2020-02-14 13:00:40:135
-1.3383,-0.54,12.4475,0.2317,7.0536,6.809,0.0177,-2.9533,4.2904,0.4279,-0.0401,0.1127,5775,-1.2,-69.74,9.66,178.67,-45.36,-1.75,5,67.707,23.549025,87.29009,106.45,NaN,29.59,10.374194,208.3,14 / 20,23503,2020-02-14 13:00:40:634
-0.6487,8.3914,2.3971,-0.1121,7.0047,6.8624,-0.4184,-0.0825,-0.1953,-0.0874,-0.0096,-0.1551,5092,-0.95,-69.41,9.45,179.11,-45.58,0.94,5,68.288,23.54896,87.290054,106.45,NaN,29.56,10.374194,208.2,16 / 21,24003,2020-02-14 13:00:41:134
-1.0824,-4.2525,13.3661,-0.0749,6.8143,7.052,-0.9386,-9.3733,6.033,-0.0723,-0.0461,-0.0282,5773,-1.28,-69.15,10.64,179.16,-44.67,0.89,5,68.384,23.54896,87.290054,106.45,NaN,29.56,10.374194,208.2,16 / 21,24504,2020-02-14 13:00:41:635
8.739,14.509,-18.29,0.0284,6.644,7.213,1.0748,-2.9801,-0.2066,-0.0569,-0.0777,0.0621,5016,-2.87,-68.94,10.29,176.89,-43.82,-0.47,5,68.808,23.5489,87.290016,106.45,NaN,29.7,10.374194,209.1,13 / 17,25004,2020-02-14 13:00:42:135
-0.4226,7.7096,6.2786,-0.0164,7.0153,6.8525,1.2867,4.4584,-7.6026,0.2407,0.0508,-0.0445,5106,-2.05,-68.79,9.82,177.96,-45.67,0.14,5,67.636,23.5489,87.290016,106.45,NaN,29.7,10.374194,209.1,13 / 17,25504,2020-02-14 13:00:42:635
-3.3913,-0.4686,19.1324,-0.017,6.6219,7.2333,-1.3559,-6.101,8.8401,0.0647,-0.0008,-0.0018,5919,-0.84,-67.72,7.88,179.1,-42.1,0.85,5,67.614,23.548832,87.28998,106.45,NaN,29.02,10.374194,207.8,15 / 21,26004,2020-02-14 13:00:43:135
0.3418,5.104,10.1064,0.1339,6.6739,7.1841,-0.5738,-1.4421,2.8281,0.0661,0.008,-0.022,6329,-0.75,-67.89,8.63,178.76,-43.44,-1.28,5,67.74,23.548832,87.28998,106.45,NaN,29.02,10.374194,207.8,15 / 21,26504,2020-02-14 13:00:43:635
0.4335,2.1203,14.2199,0.2687,6.9522,6.9113,-0.9283,-2.6878,3.7779,-0.073,0.0114,0.0065,6744,-0.6,-68.21,8.3,178.6,-45.15,-2.23,5,67.885,23.54878,87.28995,103.23,NaN,26.14,10.374194,210.6,14 / 19,27004,2020-02-14 13:00:44:135
-1.4655,5.5291,6.4743,0.106,6.6437,7.2125,-2.2216,-5.6831,7.1341,-0.9524,0.0473,-0.1902,6901,0.44,-68.31,9.3,179.74,-44.23,-1.59,5,68.368,23.54878,87.28995,103.23,NaN,26.14,10.374194,210.6,14 / 19,27504,2020-02-14 13:00:44:635
0.708,12.5858,2.7491,0.2108,6.8233,7.0405,1.9034,4.1772,-1.8435,0.0013,-0.0562,-0.1123,7068,0.51,-68.54,8.46,180.79,-44.09,-1.71,5,68.842,23.54873,87.289894,103.23,NaN,27.32,10.374194,211.1,16 / 21,28004,2020-02-14 13:00:45:135
1.7231,9.9614,-0.8932,0.1236,6.7012,7.1588,-0.755,-1.7063,1.6726,0.0218,-0.0041,0.0821,6809,0.54,-68.54,9.37,180.76,-44.51,-1.7,5,68.207,23.54873,87.289894,103.23,NaN,27.32,10.374194,211.1,16 / 21,28504,2020-02-14 13:00:45:635
-1.3178,5.4265,13.1671,0.1599,6.8205,7.0445,0.2152,1.5865,-0.0759,-0.1249,-0.026,-0.0946,6702,0.06,-68.45,8.68,179.66,-44.67,-2.05,5,67.214,23.548668,87.289856,103.23,NaN,25.06,10.374194,210.6,17 / 21,29004,2020-02-14 13:00:46:135
2.7874,7.8667,3.8302,0.0424,6.587,7.265,-0.6205,-0.3895,0.8181,0.077,0.0256,-0.1075,6934,0.3,-68.75,7.73,179.95,-42.2,-0.33,5,66.42,23.548668,87.289856,103.23,NaN,25.06,10.374194,210.6,17 / 21,29503,2020-02-14 13:00:46:634
-2.1289,4.6848,4.6858,-0.0947,6.4645,7.3737,0.2175,-1.1685,2.0976,-0.2391,-0.0186,-0.0436,5528,2.04,-68.48,6.95,182.15,-41.24,0.74,5,65.23,23.548628,87.289825,100,NaN,21.71,10.374194,211.4,17 / 21,30003,2020-02-14 13:00:47:134
-1.5959,10.0444,-1.2968,0.1329,6.3766,7.4493,0.9629,-1.4508,1.5063,0.2469,0.1043,0.0748,4156,1.88,-68.46,6.46,181.96,-39,-0.61,5,66.338,23.548628,87.289825,100,NaN,21.71,10.374194,211.4,17 / 21,30504,2020-02-14 13:00:47:635
1.1418,3.5634,6.0411,0.1164,6.1873,7.6075,0.7281,-1.5855,2.5594,-0.5061,-0.1307,0.025,3348,0.98,-68.48,5.5,181.01,-39.18,-0.08,5,62.691,23.548592,87.289795,100,NaN,14.65,10.374194,214,17 / 21,31004,2020-02-14 13:00:48:135
0.813,6.827,5.2311,0.2011,5.9656,7.7809,-0.4856,-0.7703,1.2004,0.0548,0.0278,0.1366,3354,0.97,-68.71,6.54,180.79,-37.47,-1.48,5,58.348,23.548592,87.289795,100,NaN,14.65,10.374194,214,17 / 21,31504,2020-02-14 13:00:48:635
0.6557,7.4785,3.4633,0.0564,5.8651,7.8592,0.6533,0.8399,0.1559,0.1116,-0.0867,-0.1321,3354,0.99,-68.49,6.15,180.94,-36.73,-0.41,5,51.534,23.548569,87.28978,100,NaN,9.18,10.374194,213.1,17 / 21,32004,2020-02-14 13:00:49:135
0.8551,4.8988,5.9572,0.0892,5.6747,7.9975,0.6391,-0.3835,0.5788,0.0053,-0.0308,-0.0547,3666,1.32,-68.26,6.73,180.87,-36.15,-0.81,5,50.41,23.548569,87.28978,100,NaN,9.18,10.374194,213.1,17 / 21,32503,2020-02-14 13:00:49:634
0.6981,5.2782,13.9714,0.0262,5.759,7.9375,0.9476,1.0457,2.4119,0.1566,0.0677,-0.1228,3786,1.12,-68.33,6.63,180.89,-34.46,-0.51,5,55.033,23.548569,87.28978,100,NaN,9.18,10.374194,213.1,13 / 17,33003,2020-02-14 13:00:50:134
0.8016,6.3409,8.0292,-0.0456,6.0698,7.7023,-0.3979,0.8183,-0.7726,0.0049,0.0038,0.0312,3573,1.83,-67.95,7.82,182.01,-38.24,0.34,5,49.608,23.548569,87.28978,100,NaN,9.18,10.374194,213.1,13 / 17,33504,2020-02-14 13:00:50:635
-0.2969,6.6493,6.2154,-0.1768,6.1787,7.6133,0.2966,0.6784,-0.6358,0.077,0.096,-0.0695,3560,1.82,-67.8,7.75,182.16,-39.05,1.33,5,47.337,23.54856,87.28979,96.77,NaN,0,10.374194,,14 / 19,34004,2020-02-14 13:00:51:135
