,,,,,,,,,,,,,,,,,,,,,,,,,,,,,,
ACCELEROMETER X (m/s²),ACCELEROMETER Y (m/s²),ACCELEROMETER Z (m/s²),GRAVITY X (m/s²),GRAVITY Y (m/s²),GRAVITY Z (m/s²),LINEAR ACCELERATION X (m/s²),LINEAR ACCELERATION Y (m/s²),LINEAR ACCELERATION Z (m/s²),GYROSCOPE X (rad/s),GYROSCOPE Y (rad/s),GYROSCOPE Z (rad/s),LIGHT (lux),MAGNETIC FIELD X (μT),MAGNETIC FIELD Y (μT),MAGNETIC FIELD Z (μT),ORIENTATION Z (azimuth °),ORIENTATION X (pitch °),ORIENTATION Y (roll °),PROXIMITY (i),SOUND LEVEL (dB),LOCATION Latitude : ,LOCATION Longitude : ,LOCATION Altitude ( m),LOCATION Altitude-google ( m),LOCATION Speed ( Kmh),LOCATION Accuracy ( m),LOCATION ORIENTATION (°),Satellites in range,Time since start in ms ,YYYY-MO-DD HH-MI-SS_SSS
-0.0058,6.5358,6.9601,-0.0495,6.7353,7.1277,-0.0204,0.0038,-0.0019,-0.0005,-0.0062,0.0063,6921,16.57,-40.72,-22.34,229.07,-43.38,0.4,5,44.669,23.550348,87.29063,106.45,NaN,0,10.374194,,27 / 37,2,2020-02-14 12:43:52:460
0.8337,6.4996,6.9858,0.0102,6.7393,7.124,0.4618,0.0514,-0.0502,0.0058,0.026,0.0156,7443,16.95,-40.79,-22.17,229.24,-43.41,-0.08,5,47.399,23.550348,87.29063,106.45,NaN,0,10.374194,,27 / 37,503,2020-02-14 12:43:52:961
-0.6643,6.7796,6.7937,0.0239,6.7383,7.1249,0.062,-0.183,0.187,-0.0198,-0.0075,-0.0049,8039,16.74,-40.89,-22.42,229.2,-43.36,-0.23,5,47.544,23.550348,87.29063,106.45,NaN,0,10.374194,,27 / 37,1003,2020-02-14 12:43:53:461
0.1216,6.6451,6.9612,0.0627,6.7341,7.1287,0.1082,0.1138,-0.129,-0.0108,0.0142,-0.0117,7676,16.66,-40.88,-22.5,230.63,-43.37,-0.5,5,47.273,23.550348,87.29063,106.45,NaN,0,10.374194,,27 / 37,1502,2020-02-14 12:43:53:960
0.0233,6.6238,6.8678,0.0294,6.7377,7.1255,0.0267,0.0166,-0.0217,0.0016,-0.0025,-0.0094,7512,16.73,-40.79,-22.2,229.22,-43.38,-0.23,5,46.008,23.550348,87.29063,106.45,NaN,0,10.374194,,27 / 37,2002,2020-02-14 12:43:54:460
0.097,6.9023,6.6577,0.0233,6.7266,7.136,-0.1564,-0.07,0.1608,0.0013,0.0052,0.0062,7448,16.88,-40.69,-22.35,229.11,-43.31,-0.19,5,48.535,23.550348,87.29063,106.45,NaN,0,10.374194,,27 / 37,2502,2020-02-14 12:43:54:960
-0.0377,6.6447,6.8688,0.0057,6.725,7.1376,-0.1528,0.0972,-0.0501,-0.0063,-0.0071,-0.0058,7371,17.06,-40.77,-22,229.06,-43.3,-0.05,5,49.398,23.550348,87.29063,106.45,NaN,0,10.374194,,27 / 37,3002,2020-02-14 12:43:55:460
-0.0852,6.6493,6.7627,-0.0484,6.7297,7.133,0.0467,0.0212,0.002,-0.0008,-0.0016,0.009,7294,16.71,-40.64,-22.16,228.91,-43.28,0.44,5,49.21,23.550348,87.29063,106.45,NaN,0,10.374194,,27 / 37,3503,2020-02-14 12:43:55:961
-0.0136,6.645,6.9373,-0.0161,6.7327,7.1303,-0.0358,0.1373,-0.1486,-0.0131,-0.0105,0.0028,7294,17.07,-40.77,-22.05,229.11,-43.36,0.13,5,49.214,23.550348,87.29063,106.45,NaN,0,10.374194,,27 / 37,4002,2020-02-14 12:43:56:460
-0.255,6.5553,6.9488,-0.0134,6.7257,7.1368,-0.2148,-0.0106,0.0197,0.0037,-0.0139,-0.0127,7219,16.89,-40.73,-22.1,229.01,-43.29,0.1,5,49.075,23.550348,87.29063,106.45,NaN,0,10.374194,,27 / 37,4502,2020-02-14 12:43:56:960
-0.0084,6.6391,6.9783,0.0073,6.7337,7.1293,0.0398,0.1026,-0.0215,0.0024,-0.0081,-0.0048,7502,17.05,-40.82,-22.17,229.08,-43.31,-0.05,5,51.064,23.550348,87.29063,106.45,NaN,0,10.374194,,27 / 37,5002,2020-02-14 12:43:57:460
-0.396,6.4992,6.964,0.0049,6.7285,7.1343,-0.2681,-0.039,-0.0134,0.0009,-0.0115,0.0125,7441,16.81,-40.64,-22.6,230.44,-43.32,-0.04,5,55.392,23.550348,87.29063,106.45,NaN,0,10.374194,,27 / 37,5503,2020-02-14 12:43:57:961
-0.0209,7.0696,6.4892,0.0757,6.7287,7.1336,-0.1181,0.277,-0.3082,0.0227,0.0275,0.0058,7683,16.7,-41.06,-22.4,229.22,-43.31,-0.6,5,50.057,23.550348,87.29063,106.45,NaN,0,10.374194,,27 / 37,6002,2020-02-14 12:43:58:460
-1.3027,5.8388,8.9259,0.0257,6.7067,7.1547,-0.5827,-0.0948,0.1081,0.0222,-0.0351,0.0235,7611,16.8,-41.08,-22.58,230.21,-43.15,-0.21,5,57.169,23.550348,87.29063,106.45,NaN,0,10.374194,,27 / 37,6502,2020-02-14 12:43:58:960
-1.0773,6.5619,8.3857,0.049,6.7282,7.1344,-0.0131,0.2113,-0.4694,0.0435,0.0172,-0.001,7470,16.66,-41.07,-22.91,230.28,-43.16,-0.4,5,51.878,23.550348,87.29063,106.45,NaN,0,10.374194,,27 / 37,7003,2020-02-14 12:43:59:461
-0.7818,5.9371,8.5742,-0.0454,6.699,7.1619,-0.5062,-0.5499,0.3563,0.0287,0.0067,-0.0354,7160,17.22,-40.68,-22.34,228.72,-43.09,0.08,5,52.307,23.550348,87.29063,106.45,NaN,0,10.374194,,27 / 37,7502,2020-02-14 12:43:59:960
-0.0115,6.3146,8.5002,0.007,6.7175,7.1446,0.2483,-0.2385,0.3248,0.0022,-0.0092,-0.0197,7160,16.83,-40.59,-22.73,230.31,-43.24,-0.06,5,56.017,23.550348,87.29063,106.45,NaN,0,10.374194,,26 / 37,8003,2020-02-14 12:44:00:461
-1.2228,6.597,6.5285,-0.0321,6.7899,7.0757,-0.1925,0.34,-0.2615,0.0467,-0.0045,-0.0121,7397,17.13,-40.57,-23,231.16,-43.82,0.26,5,59.627,23.550348,87.29063,106.45,NaN,0,10.374194,,26 / 37,8503,2020-02-14 12:44:00:961
-0.0098,6.5104,8.1628,-0.0399,6.9531,6.9155,0.1644,1.0144,-0.5266,0.0239,0.0084,0.0232,7955,17.18,-40.71,-22.52,233.68,-45.3,0.06,5,60.166,23.550348,87.29063,106.45,NaN,0,10.374194,,26 / 37,9003,2020-02-14 12:44:01:461
-0.8193,6.0358,5.9354,-0.2651,7.0762,6.7844,-0.347,-0.1403,1.2193,0.1123,-0.1177,-0.254,7787,17.25,-39.55,-23.48,235.98,-45.76,0.74,5,60.421,23.550348,87.29063,106.45,NaN,0,10.374194,,26 / 37,9502,2020-02-14 12:44:01:960
-0.0893,5.6828,7.7531,-0.129,7.2026,6.654,-0.2942,1.2336,-1.9723,-0.1182,-0.0362,0.1298,8442,16.18,-39.14,-24.65,243.07,-47.26,1.11,5,62.43,23.550352,87.29061,103.23,NaN,3.78,10.374194,283.2,27 / 37,10002,2020-02-14 12:44:02:460
4.145,7.0378,-1.7285,0.4109,7.1839,6.6629,-0.3825,-0.7752,1.1632,0.019,0.1496,0.0806,8110,15.47,-41.15,-24.18,235.97,-47.07,-2.81,5,64.831,23.550352,87.29061,103.23,NaN,3.78,10.374194,283.2,27 / 37,10503,2020-02-14 12:44:02:961
-0.4202,2.8273,1.5032,0.2088,7.3717,6.4641,2.2905,1.1133,-0.8901,0.015,0.0585,-0.1272,7517,16.37,-40.7,-22.82,236.67,-47.63,-2.53,5,64.235,23.550358,87.29059,103.23,NaN,7.49,10.374194,288.6,27 / 36,11002,2020-02-14 12:44:03:460
-2.5528,9.7291,7.2465,-0.0925,7.3743,6.4638,0.3421,-1.2997,2.8862,-0.3149,-0.0972,-0.1111,7574,16.94,-39.23,-23.6,245.81,-48.76,0.82,5,67.113,23.550358,87.29059,103.23,NaN,7.49,10.374194,288.6,27 / 36,11502,2020-02-14 12:44:03:960
0.8843,6.7294,8.9953,0.1755,7.3129,6.5315,-0.1673,-0.2739,1.3629,-0.1335,-0.1117,-0.0488,8434,15.93,-38.87,-24.86,248.46,-49.56,-1,5,66.668,23.550365,87.290565,103.23,NaN,9.04,10.374194,285.7,28 / 37,12003,2020-02-14 12:44:04:461
1.0251,8.0408,6.0246,0.4515,7.2274,6.613,0.4408,1.2126,-1.6445,-0.269,0.0838,0.1278,8089,15.79,-40.43,-24.22,239.92,-47.48,-3.91,5,66.298,23.550365,87.290565,103.23,NaN,9.04,10.374194,285.7,28 / 37,12504,2020-02-14 12:44:04:962
1.6519,7.6942,5.6472,-0.0037,7.1162,6.7476,0.4103,-0.081,1.727,-0.0366,0.0042,-0.1167,7740,17.01,-38.76,-24.35,240.24,-46.12,-0.54,5,65.724,23.550377,87.290535,103.23,NaN,11.05,10.374194,283.9,28 / 37,13002,2020-02-14 12:44:05:460
-2.5141,3.3838,11.2639,-1.0048,6.9284,6.8671,-0.0786,0.6897,-0.3622,0.3048,-0.1323,-0.2674,6934,18.25,-34.22,-24.75,255.33,-46.43,6.84,5,65.429,23.550377,87.290535,103.23,NaN,11.05,10.374194,283.9,28 / 37,13503,2020-02-14 12:44:05:961
-3.3583,6.9483,8.8291,-1.4692,6.9883,6.7213,-1.4293,-0.7031,2.2066,0.3466,-0.2862,-0.2598,8523,16.88,-29.26,-26.99,275.47,-45.45,12.33,5,65.79,23.550388,87.2905,103.23,NaN,13.54,10.374194,288.4,28 / 37,14002,2020-02-14 12:44:06:460
-1.1663,3.0927,2.3929,-1.7379,7.0027,6.6417,0.8226,-2.2711,0.6648,-0.1816,-0.1907,-0.3719,9984,13.55,-24.88,-30.91,318.53,-45.57,14.66,5,67.789,23.550388,87.2905,103.23,NaN,13.54,10.374194,288.4,28 / 37,14502,2020-02-14 12:44:06:960
-0.1522,3.4312,9.2846,-1.6581,7.0658,6.5952,3.1317,-1.9903,-0.5725,-0.4885,-0.2419,-0.2581,12162,11.5,-22.7,-33.6,351.48,-47.64,15.31,5,67.434,23.550406,87.29047,103.23,NaN,14.29,10.374194,296.9,28 / 37,15003,2020-02-14 12:44:07:461
0.1384,10.5371,0.8911,-1.6573,7.2607,6.3801,1.5409,0.2684,-1.2975,0.164,-0.11,-0.3436,12703,6.19,-21.68,-36.58,15.19,-46.51,14.18,5,67.712,23.550406,87.29047,103.23,NaN,14.29,10.374194,296.9,28 / 37,15502,2020-02-14 12:44:07:960
1.5924,11.0287,-13.5647,-1.4866,7.4759,6.1702,-1.1173,-2.7558,-0.5456,-0.0383,-0.4721,-0.045,15980,-2.52,-21.01,-40,38.37,-49.67,13.55,5,66.668,23.550419,87.29044,100,NaN,1.48,10.374194,323.6,28 / 37,16003,2020-02-14 12:44:08:461
0.2276,2.9096,16.0724,0.2472,7.392,6.4395,-0.7459,-4.2989,4.5849,0.2635,-0.1358,0.2564,30000,-8.94,-23.58,-40.64,25.77,-48.92,-2.2,5,67.28,23.550419,87.29044,100,NaN,1.48,10.374194,323.6,28 / 37,16503,2020-02-14 12:44:08:961
-2.235,3.0865,9.4079,0.7604,7.5782,6.1776,1.1967,-0.5934,1.2795,0.0711,-0.1746,-0.0028,30000,-9.7,-24.18,-41.33,17.37,-50.19,-6.55,5,66.829,23.550432,87.29044,100,NaN,5.94,10.374194,312.6,28 / 37,17002,2020-02-14 12:44:09:460
-4.7635,1.9001,23.5069,0.6167,7.3686,6.4416,0.3005,-1.1667,1.7723,0.1071,-0.006,-0.0256,29767.002,-8.62,-23.47,-41.03,18.41,-47.14,-5.59,5,67.357,23.550432,87.29044,100,NaN,5.94,10.374194,312.6,28 / 37,17502,2020-02-14 12:44:09:960
0.2173,3.4399,12.6662,0.3337,7.2836,6.558,-0.2234,-1.9837,1.9129,0.2798,-0.0673,0.0279,13635,-9.07,-23.98,-40.7,25.19,-47.96,-2.91,5,66.319,23.550549,87.29041,90.32,NaN,20.38,10.374194,348.8,28 / 37,18002,2020-02-14 12:44:10:460
-0.7718,12.475,4.1678,0.4094,7.1324,6.718,0.0907,2.6135,-3.9872,0.0989,-0.0972,0.1762,13294,-10.02,-23.3,-41.25,27.71,-46.92,-3.24,5,66.698,23.550549,87.29041,90.32,NaN,20.38,10.374194,348.8,28 / 37,18502,2020-02-14 12:44:10:960
0.3517,4.4508,-1.224,0.5649,7.3543,6.4627,0.2651,-1.6733,6.7843,0.1532,0.0162,0.1146,17582,-9.92,-24.64,-40.93,25.11,-47.43,-4.89,5,67.823,23.550592,87.2904,90.32,NaN,16.92,10.374194,351.4,28 / 37,19003,2020-02-14 12:44:11:461
-0.604,8.377,5.4487,0.4069,7.4069,6.4143,-0.1755,1.1,3.056,-0.1349,0.0005,-0.0042,18881,-10.62,-24.3,-41.14,28.1,-49.05,-3.63,5,67.275,23.550592,87.2904,90.32,NaN,16.92,10.374194,351.4,28 / 37,19502,2020-02-14 12:44:11:960
3.5947,11.721,-4.005,0.4225,7.4884,6.3179,3.8693,3.2731,-4.1836,-0.1822,0.0876,-0.1919,9141,-11.95,-23.45,-42.95,26.18,-49.78,-3.83,5,67.722,23.55064,87.2904,90.32,NaN,16.96,10.374194,352.7,28 / 37,20002,2020-02-14 12:44:12:460
0.8995,9.2065,8.9279,0.4543,7.3542,6.4714,-0.2915,-0.3872,-1.2645,-0.0919,-0.0122,-0.0057,7579,-11.21,-23.41,-41.42,28.33,-47.83,-3.73,5,67.192,23.55064,87.2904,90.32,NaN,16.96,10.374194,352.7,28 / 37,20502,2020-02-14 12:44:12:960
0.5028,7.6759,8.5031,0.4618,7.2775,6.557,-0.6914,0.5019,1.1978,-0.0056,-0.1127,0.0754,8196,-11.36,-22.98,-40.8,31.25,-46.45,-3.25,5,66.046,23.55068,87.29039,80.65,NaN,16.34,10.374194,352.3,27 / 37,21003,2020-02-14 12:44:13:461
1.4862,7.7606,8.6253,0.5516,7.2276,6.6052,1.5753,-0.6464,0.9583,-0.2767,-0.0232,0.0343,10825,-11.4,-22.62,-40.03,27.75,-47.48,-4.77,5,65.502,23.55068,87.29039,80.65,NaN,16.34,10.374194,352.3,27 / 37,21503,2020-02-14 12:44:13:961
-3.4256,5.2654,15.3594,0.4924,6.9495,6.9017,-1.5372,1.246,-0.1194,-0.3101,0.0212,0.0475,30000,-11.94,-22.02,-40.58,32.77,-45.13,-4.08,5,66.614,23.550728,87.29038,83.87,NaN,18.65,10.374194,351.6,27 / 37,22003,2020-02-14 12:44:14:461
2.9534,-4.0135,11.5029,0.4719,6.5237,7.3068,0.4512,-3.6834,7.9284,-1.1628,-0.1694,0.0098,30000,-11.55,-23.2,-40.5,31.39,-45.88,-4.75,5,66.527,23.550728,87.29038,83.87,NaN,18.65,10.374194,351.6,27 / 37,22502,2020-02-14 12:44:14:960
6.1979,20.2702,-19.9537,0.6117,7.4194,6.3835,1.9347,6.4009,-7.5964,-0.2623,0.0168,-0.118,26147,-11.48,-23.61,-40.34,25.11,-49.16,-5.47,5,66.035,23.55079,87.29038,83.87,NaN,23.54,10.374194,354.3,29 / 37,23002,2020-02-14 12:44:15:460
3.5374,8.1804,6.4404,0.5472,6.9156,6.9314,-1.0529,-4.3784,4.7721,-0.2035,0.1048,0.0001,26431,-11.39,-22.68,-41.12,31.18,-44.61,-4.4,5,64.377,23.55079,87.29038,83.87,NaN,23.54,10.374194,354.3,29 / 37,23504,2020-02-14 12:44:15:962
3.094,8.8162,4.7645,0.4694,6.9189,6.9339,-1.2198,-1.0295,-0.5729,-0.0451,-0.0397,0.0734,30000,-10.44,-23.62,-41.78,28.72,-44.87,-3.87,5,64.449,23.550846,87.290375,83.87,NaN,22.28,10.374194,350.7,28 / 37,24004,2020-02-14 12:44:16:462
-1.0825,3.7495,9.5391,0.2765,7.0019,6.8606,-0.2711,0.6141,-4.3277,0.0605,0.0269,-0.045,30000,-10,-23.91,-41.23,35.04,-43.99,-2.69,5,65.395,23.550846,87.290375,83.87,NaN,22.28,10.374194,350.7,28 / 37,24503,2020-02-14 12:44:16:961
-2.7863,3.5843,11.0812,0.2262,6.8933,6.9715,1.9813,4.1653,-3.2278,0.3369,-0.1617,0.117,30000,-9.79,-22.61,-41.75,31.48,-45.21,-2.07,5,66.844,23.5509,87.29037,83.87,NaN,21.46,10.374194,347.8,28 / 37,25002,2020-02-14 12:44:17:460
0.9395,5.7933,9.8474,0.387,6.9229,6.935,-0.354,-1.1846,-0.0976,0.1263,0.0529,-0.0029,30000,-10.09,-22.79,-41.97,29.15,-44.91,-3.19,5,66.539,23.5509,87.29037,83.87,NaN,21.46,10.374194,347.8,28 / 37,25503,2020-02-14 12:44:17:961
7.6677,15.5254,-16.3359,0.4834,6.9592,6.8925,2.7663,2.7138,-5.6355,0.8608,-0.1113,0.2157,30000,-10.67,-22.28,-41.53,28.53,-45.21,-4.01,5,66.325,23.55095,87.29036,83.87,NaN,20.81,10.374194,350.8,28 / 37,26003,2020-02-14 12:44:18:461
4.2225,12.5124,-6.9862,0.4998,7.1832,6.6575,0.1444,3.4483,0.4227,-0.087,0.1917,-0.1882,28076,-9.43,-23.09,-41.02,24.24,-44.3,-4.62,5,67.657,23.55095,87.29036,83.87,NaN,20.81,10.374194,350.8,28 / 37,26503,2020-02-14 12:44:18:961
2.4728,19.6512,-3.694,0.2483,7.2515,6.5973,0.4566,6.1764,-2.4508,-0.1366,0.0478,-0.031,13817,-7.73,-22.81,-41.43,28.26,-45.16,-1.42,5,66.639,23.551,87.29035,77.42,NaN,21.42,10.374194,347.9,17 / 21,27002,2020-02-14 12:44:19:460
-5.2841,2.1657,12.563,0.1509,6.7335,7.128,4.1391,-0.573,0.0985,0.0184,-0.2973,0.1877,12989,-7.77,-21.15,-37.25,33.26,-44.7,-1.02,5,67.288,23.551,87.29035,77.42,NaN,21.42,10.374194,347.9,17 / 21,27502,2020-02-14 12:44:19:960
0.2581,8.3772,8.9236,-0.1723,6.8197,7.0451,-0.7025,-0.674,2.4016,0.9051,-0.0163,-0.0154,9720,-9.93,-21.24,-39.21,42.74,-44.06,1.4,5,67.412,23.55106,87.29034,80.65,NaN,20.56,10.374194,345.8,17 / 21,28003,2020-02-14 12:44:20:461
-2.3589,2.8761,9.3998,0.0221,6.5245,7.3212,-0.056,-0.0626,-2.1584,-0.0218,0.0364,0.0177,12069,-11.61,-21.84,-40.15,46.72,-43.17,0.02,5,67.091,23.55106,87.29034,80.65,NaN,20.56,10.374194,345.8,17 / 21,28503,2020-02-14 12:44:20:961
-0.4717,6.1588,9.0784,0.0316,6.4803,7.3604,-1.088,0.0077,5.1696,0.7964,-0.1577,0.1966,9656,-10.26,-22.03,-40.3,43.92,-42.24,0.26,5,66.83,23.551111,87.29032,80.65,NaN,20.41,10.374194,348.5,14 / 17,29004,2020-02-14 12:44:21:462
6.0562,19.1524,-13.9405,0.0262,6.7661,7.0986,4.1916,7.6905,-11.8824,0.4487,0.0241,0.0279,25295,-10.11,-22.86,-40.35,35.86,-45.26,-1.48,5,66.995,23.551111,87.29032,80.65,NaN,20.41,10.374194,348.5,14 / 17,29502,2020-02-14 12:44:21:960
-3.7254,1.45,12.8907,0.1695,7.1294,6.7315,1.0706,3.2958,-2.2517,-0.5971,0.0359,-0.0733,16374,-11.74,-22.64,-40.85,37.63,-46.63,-1.44,5,67.398,23.55116,87.29031,83.87,NaN,21.24,10.374194,351.4,17 / 21,30002,2020-02-14 12:44:22:460
-1.635,6.004,11.6861,0.2821,6.8953,6.9675,0.2365,-0.6864,-0.6218,-0.0469,-0.0349,0.0361,30000,-13.43,-24.41,-39.08,44.55,-45.88,-2.26,5,67.579,23.55116,87.29031,83.87,NaN,21.24,10.374194,351.4,17 / 21,30502,2020-02-14 12:44:22:960
1.2402,10.6139,-1.532,0.4763,6.9501,6.9022,1.2044,2.5485,-5.0396,-0.2385,-0.07,0.0709,30000,-8.4,-22.62,-41.32,22.76,-45.59,-3.26,5,67.53,23.551216,87.290306,83.87,NaN,22.14,10.374194,349.7,14 / 17,31002,2020-02-14 12:44:23:460
-3.0942,9.7043,12.8922,0.3535,6.8241,7.034,-0.7004,-0.5161,1.1208,0.4274,0.0123,0.0994,30000,-9.74,-22.85,-41.68,31.18,-44.1,-2.88,5,69.439,23.551216,87.290306,83.87,NaN,22.14,10.374194,349.7,14 / 17,31502,2020-02-14 12:44:23:960
0.5789,9.5664,6.1924,0.2975,6.7373,7.1197,-0.579,-2.3901,1.7244,-0.2774,0.0053,-0.0729,30000,-11.32,-21.54,-44.17,31.39,-43.18,-2.86,5,68.824,23.551264,87.29029,80.65,NaN,23.51,10.374194,348.9,17 / 20,32002,2020-02-14 12:44:24:460
-1.6164,2.1868,12.146,0.369,6.8786,6.9799,0.995,3.5033,-5.023,0.39,-0.0217,0.0652,30000,-9.8,-22.37,-41.39,28.05,-44.99,-3.66,5,67.88,23.551264,87.29029,80.65,NaN,23.51,10.374194,348.9,17 / 20,32502,2020-02-14 12:44:24:960
-0.2706,5.4466,7.0722,0.4207,6.9416,6.9143,0.5714,0.9038,0.8778,-0.2982,0.0725,0.0038,30000,-10.36,-22.83,-41.62,31.23,-44.25,-2.76,5,68.616,23.551338,87.29031,80.65,NaN,27.58,13.832258,357.6,12 / 16,33003,2020-02-14 12:44:25:461
0.809,9.1996,11.2617,0.3875,7.003,6.8541,-0.9829,0.2681,-0.2188,0.1283,-0.0476,0.058,18250,-10.97,-23.11,-40.66,34.23,-45.25,-2.75,5,68.889,23.551338,87.29031,80.65,NaN,27.58,13.832258,357.6,12 / 16,33502,2020-02-14 12:44:25:960
2.17,13.6343,-6.5521,0.5126,6.8001,7.0475,0.2478,-1.9466,0.632,-0.1242,-0.0592,0.1233,8703,-11.77,-22.96,-40.98,35.98,-43.9,-4.16,5,68.803,23.551413,87.2903,80.65,NaN,25.16,13.832258,353.7,16 / 19,34002,2020-02-14 12:44:26:460
3.7281,10.1329,-12.5481,0.4384,6.9392,6.9156,-0.0235,1.0305,1.3011,0.206,-0.0244,0.0158,6682,-11.39,-23.31,-40.33,36.1,-44.09,-3.48,5,68.531,23.551413,87.2903,80.65,NaN,25.16,13.832258,353.7,16 / 19,34502,2020-02-14 12:44:26:960
0.9861,7.0959,4.9681,0.2721,6.7119,7.1447,0.131,0.1213,1.2776,-0.0488,0.0736,0.042,8350,-9.36,-23.18,-40.09,39.13,-41.39,-1.96,5,68.333,23.551464,87.29028,80.65,NaN,24.34,13.832258,348,11 / 14,35002,2020-02-14 12:44:27:460
1.393,8.3972,10.4119,-0.024,6.9471,6.9216,0.4817,1.8967,-4.0484,0.3345,0.0524,-0.0587,15661,-8.91,-24.43,-40.37,36.33,-45.09,-0.8,5,66.851,23.551464,87.29028,80.65,NaN,24.34,13.832258,348,11 / 14,35502,2020-02-14 12:44:27:960
-1.638,3.8966,16.1879,0.0479,6.9287,6.9398,-0.9563,-0.0047,3.6444,0.1746,-0.043,0.2188,15661,-10.3,-25.15,-40.95,40.63,-44.95,-0.4,5,67.909,23.551523,87.29026,80.65,NaN,24.3,13.832258,348,11 / 14,36002,2020-02-14 12:44:28:460
1.0233,10.5318,0.309,0.1127,7.1802,6.6785,0.1275,1.4883,-3.9515,-0.0573,-0.0641,-0.042,15661,-8.59,-24.48,-41.13,33.61,-45.69,-0.82,5,68.001,23.551523,87.29026,80.65,NaN,24.3,13.832258,348,11 / 14,36503,2020-02-14 12:44:28:961
-0.5604,3.7355,12.6512,0.372,6.9273,6.9314,-0.7867,-3.2209,4.9721,-0.2241,0.0653,0.0841,15661,-8.49,-23.65,-41.93,22.66,-45.75,-3.15,5,67.91,23.551586,87.29025,80.65,NaN,24.98,13.832258,347.6,17 / 36,37002,2020-02-14 12:44:29:460
-1.0616,3.4543,11.1787,0.0975,6.9083,6.9596,-1.0884,-4.2042,5.2473,0.2088,-0.0609,-0.0042,15661,-5.83,-22.92,-40.3,24.54,-44.79,-0.8,5,67.937,23.551586,87.29025,80.65,NaN,24.98,13.832258,347.6,17 / 36,37503,2020-02-14 12:44:29:961
2.6861,7.5405,6.6501,0.3409,6.9224,6.9379,0.1779,-2.4821,2.1684,-0.2866,-0.0088,0.0153,10437,-9.36,-22.08,-41.26,28.6,-44.71,-2.33,5,67.875,23.551643,87.290215,80.65,NaN,26.24,13.832258,340.1,17 / 36,38002,2020-02-14 12:44:30:460
2.0287,10.869,2.774,0.2324,7.007,6.857,-0.4691,0.6795,1.5219,-0.0554,-0.0739,0.0106,7365,-9.2,-22.71,-40.87,33.08,-44.56,-1.19,5,67.827,23.551643,87.290215,80.65,NaN,26.24,13.832258,340.1,17 / 36,38502,2020-02-14 12:44:30:960
1.1736,8.3285,10.2303,0.1752,7.008,6.8577,0.3021,0.1525,2.5468,-0.0808,0.0169,-0.0724,21744,-9.16,-23.37,-39.71,32.23,-45.61,-1.46,5,67.319,23.55169,87.290215,74.19,NaN,16.85,13.832258,345.7,14 / 19,39002,2020-02-14 12:44:31:460
-3.1298,3.1587,8.8272,0.1907,6.8669,6.9986,-0.5592,-1.9488,1.8019,-0.079,-0.0653,0.0654,12239,-10.69,-22.6,-39.83,38.56,-44.88,-1.86,5,67.574,23.55169,87.290215,74.19,NaN,16.85,13.832258,345.7,14 / 19,39502,2020-02-14 12:44:31:960
-0.5295,1.5039,13.5722,0.1748,6.769,7.0937,1.1994,-0.1373,-0.6071,-0.2766,0.0657,-0.1365,30000,-11.01,-22.51,-40.13,41.93,-43.65,-1.41,5,67.854,23.55174,87.29021,67.74,NaN,22.72,13.832258,349.1,13 / 16,40002,2020-02-14 12:44:32:460
-0.1392,3.2595,12.704,0.0424,6.7788,7.0863,1.5189,-0.5405,2.0646,-0.0372,-0.1323,0.0544,20186,-11.95,-23.12,-40.39,44.69,-44.69,-0.41,5,68.044,23.55174,87.29021,67.74,NaN,22.72,13.832258,349.1,13 / 16,40503,2020-02-14 12:44:32:961
-2.0737,6.6508,12.2979,0.0458,6.6438,7.213,-2.7493,-1.4301,3.108,-0.1523,-0.1599,0.0598,30000,-12.49,-22.79,-40.43,47.67,-43.17,-0.43,5,65.347,23.551796,87.29019,70.97,NaN,22,17.290323,349.2,16 / 19,41002,2020-02-14 12:44:33:460
-1.5215,5.3717,14.849,0.0907,6.5896,7.2622,-1.339,-3.1719,1.343,0.0887,-0.1261,-0.0358,30000,-13.26,-22.83,-40.07,51.47,-42.22,-0.72,5,62.99,23.551796,87.29019,70.97,NaN,22,17.290323,349.2,16 / 19,41502,2020-02-14 12:44:33:960
0.9406,10.4309,0.254,0.4685,6.8458,7.0061,0.3169,1.5207,1.4761,0.0058,0.008,0.0175,30000,-14.14,-22.95,-40.15,43.17,-44.27,-3.83,5,61.597,23.551844,87.290184,70.97,NaN,20.84,17.290323,353.3,15 / 19,42002,2020-02-14 12:44:34:460
1.6573,10.8896,3.6154,0.7792,6.6844,7.1332,0.0926,-0.7669,-2.3081,-0.0946,0.0026,0.0517,30000,-13.33,-23.05,-40.63,35.78,-42.87,-6.16,5,66.292,23.551844,87.290184,70.97,NaN,20.84,17.290323,353.3,15 / 19,42502,2020-02-14 12:44:34:960
-0.1899,7.2382,7.3362,0.8324,6.6099,7.1963,-0.4838,-1.173,2.6302,0.2353,0.0273,0.0506,30000,-12.23,-23.22,-40.94,32.46,-42.61,-6.4,5,64.805,23.551893,87.29019,67.74,NaN,18.22,17.290323,352,16 / 19,43002,2020-02-14 12:44:35:460
1.7721,10.597,-0.1185,0.8634,7.0143,6.7988,-0.2277,1.5493,-2.5444,0.5951,-0.0093,0.0291,30000,-10.73,-24.91,-40.87,22.64,-45.4,-7.99,5,65.832,23.551893,87.29019,67.74,NaN,18.22,17.290323,352,16 / 19,43502,2020-02-14 12:44:35:960
2.2099,6.2919,4.8252,1.5598,6.5776,7.1044,-0.1995,-0.1096,-1.1425,-0.1188,0.14,0.4374,30000,-9.76,-25.48,-41.02,5.71,-42.12,-12.38,5,64.992,23.551954,87.290184,67.74,NaN,18.29,17.290323,349.9,16 / 19,44002,2020-02-14 12:44:36:460
0.0151,0.3849,13.1308,1.753,6.4559,7.1707,-2.5459,-2.7506,3.9468,-0.14,0.1917,0.1313,23654,-5.83,-28.96,-40.66,323.52,-41.49,-14.06,5,64.965,23.551954,87.290184,67.74,NaN,18.29,17.290323,349.9,16 / 19,44503,2020-02-14 12:44:36:961
3.3148,11.8617,-2.3631,2.087,6.5251,7.017,-2.3216,3.1175,-1.8431,0.0444,0.3613,0.3121,21411,-1.59,-31.49,-39.6,284.48,-41.07,-15.64,5,63.101,23.55196,87.29017,70.97,NaN,11.34,17.290323,326.5,15 / 18,45002,2020-02-14 12:44:37:460
-0.6885,10.6689,2.6161,2.1932,6.3941,7.1046,2.7922,1.8705,-2.25,0.0462,0.3309,0.4174,15927,3.15,-37.23,-36.38,243.24,-40.12,-16.42,5,65.304,23.55196,87.29017,70.97,NaN,11.34,17.290323,326.5,15 / 18,45503,2020-02-14 12:44:37:961
-1.0357,0.6687,12.456,1.8908,6.8106,6.7979,-1.4432,0.9449,-0.5996,0.4949,0.3462,0.1208,12647,7.18,-42.31,-32.19,236.57,-43.99,-15.54,5,66.52,23.551989,87.290146,67.74,NaN,13.18,13.832258,311.9,17 / 20,46002,2020-02-14 12:44:38:460
-3.0911,4.3327,18.2864,1.4592,7.0045,6.7065,-0.1643,-3.9569,4.067,0.6148,0.3639,0.3555,11624,9.62,-45.52,-28.81,227.33,-44.05,-12.93,5,66.113,23.551989,87.290146,67.74,NaN,13.18,13.832258,311.9,17 / 20,46503,2020-02-14 12:44:38:961
-2.15,9.5967,3.5909,0.051,7.333,6.5111,1.3906,-2.5397,5.2555,-0.0995,0.041,-0.1822,10113,15.81,-45.32,-22.75,229.22,-46.73,-2.21,5,65.855,23.552032,87.29008,64.52,NaN,17.14,13.832258,288.2,16 / 19,47002,2020-02-14 12:44:39:460
-0.4322,11.2998,0.1348,-0.3456,7.3665,6.4642,1.6045,2.9284,-3.0808,0.0465,-0.0041,0.0186,9107,16.64,-44.27,-21.26,231.5,-48.69,3.06,5,67.325,23.552032,87.29008,64.52,NaN,17.14,13.832258,288.2,16 / 19,47502,2020-02-14 12:44:39:960
0.7619,9.646,1.2736,-0.604,7.1372,6.6983,0.5625,-4.1824,2.1247,0.2814,0.1019,-0.0484,8015,17.37,-43.28,-21.2,232.71,-48.74,4.84,5,66.733,23.552044,87.29003,67.74,NaN,17.14,13.832258,288.2,16 / 19,48002,2020-02-14 12:44:40:460
-0.9077,8.1066,10.4303,-0.628,7.3672,6.442,0.8658,0.1987,-1.8882,0.1876,-0.0711,-0.0428,8639,17.86,-41.95,-21.84,233.61,-46.76,6.32,5,66.926,23.552044,87.29003,67.74,NaN,17.14,13.832258,288.2,16 / 19,48502,2020-02-14 12:44:40:960
2.0371,12.9589,5.1147,-0.3944,7.3203,6.5136,0.7181,4.3591,-2.6547,-0.1784,-0.0951,0.0903,8265,16.8,-42.51,-22.4,231.18,-47.07,4.47,5,67.581,23.552048,87.289986,64.52,NaN,18.72,10.374194,282,16 / 19,49002,2020-02-14 12:44:41:460
2.8459,12.9338,-6.2546,-0.138,7.0269,6.8391,2.6542,1.6135,-7.6192,0.0401,0.1791,0.0114,8178,16.33,-42.27,-23.17,233.41,-47.14,1.71,5,67.077,23.552048,87.289986,64.52,NaN,18.72,10.374194,282,16 / 19,49503,2020-02-14 12:44:41:961
-0.2921,3.153,7.1544,-0.0084,6.8591,7.0088,-0.1749,-2.6392,3.4745,0.2238,-0.043,0.1614,7820,15.62,-42.91,-23.19,227.51,-44.38,0.07,5,67.026,23.552055,87.28993,64.52,NaN,18.14,10.374194,280.7,16 / 20,50002,2020-02-14 12:44:42:460
-0.3522,7.6766,5.1336,0.1496,6.8461,7.0199,0.0302,-1.2644,-0.3272,-0.1223,0.019,0.0003,7025,15.43,-43.82,-23.01,223.36,-43.41,-1.13,5,66.072,23.552055,87.28993,64.52,NaN,18.14,10.374194,280.7,16 / 20,50502,2020-02-14 12:44:42:960
0.6853,1.2765,9.1332,-0.0609,6.6275,7.2279,0.0046,-1.0849,1.5993,0.152,0.1078,-0.0052,7103,16.06,-43.78,-21.85,221.9,-42.25,0.22,5,65.536,23.552065,87.289894,61.29,NaN,16.56,13.832258,280.2,14 / 18,51002,2020-02-14 12:44:43:460
-3.1377,3.8324,13.1729,-0.2902,6.6353,7.2152,-1.4273,-1.5527,2.5196,-0.0606,-0.0996,-0.0796,5620,17.2,-41.92,-22.42,225.99,-42.77,2.91,5,63.742,23.552065,87.289894,61.29,NaN,16.56,13.832258,280.2,14 / 18,51503,2020-02-14 12:44:43:961
1.9467,4.2337,4.9467,0.0577,7.1467,6.7151,2.9597,5.4053,-7.0988,-0.9554,0.0594,-0.1739,4561,17.29,-42.65,-22.72,233.36,-46.78,-0.49,5,63.24,23.552088,87.28988,54.84,NaN,11.27,10.374194,279.4,16 / 36,52002,2020-02-14 12:44:44:460
-4.0661,0.5211,11.2695,-0.0524,6.8596,7.0081,0.6999,-1.1627,0.4269,-0.3579,0.0819,-0.1719,3654,17.31,-42.94,-23.14,226.99,-43.04,0.76,5,64.056,23.552088,87.28988,54.84,NaN,11.27,10.374194,279.4,16 / 36,52502,2020-02-14 12:44:44:960
-1.1588,4.9712,7.4681,0.2337,6.5327,7.3103,0.6562,-1.847,2.8923,0.1423,0.0153,0.0734,3641,17.45,-43.68,-25.12,227.86,-42.37,-1.52,5,64.232,23.552092,87.28985,54.84,NaN,12.2,13.832258,281.6,16 / 36,53002,2020-02-14 12:44:45:460
0.173,6.6168,6.5669,0.0946,6.5692,7.2806,0.8447,0.6216,-0.7973,0.0582,-0.0712,0.0686,3783,16.77,-41.96,-24.8,229.9,-42.06,-0.74,5,61.893,23.552092,87.28985,54.84,NaN,12.2,13.832258,281.6,16 / 36,53502,2020-02-14 12:44:45:960
1.3567,9.3666,6.636,0.2212,6.5352,7.3084,-0.4129,-1.1597,2.3711,0.0425,0.0359,0.0329,3875,16.31,-42.9,-23.9,225.56,-41.79,-1.73,5,62.044,23.552097,87.28982,58.06,NaN,11.99,17.290323,281.4,16 / 36,54002,2020-02-14 12:44:46:460
0.7864,10.5746,3.9636,0.1667,6.6975,7.1614,2.008,2.8385,-3.132,0.2847,0.0114,0.077,4004,16.62,-43.01,-23.22,228.03,-43.28,-1.64,5,59.716,23.552097,87.28982,58.06,NaN,11.99,17.290323,281.4,16 / 36,54502,2020-02-14 12:44:46:960
-0.4054,3.6352,10.6728,0.0071,6.5645,7.2855,-0.4014,-2.1514,2.9556,-0.1664,-0.0295,-0.1896,4317,16.81,-42.31,-23.02,227.1,-42.02,-0.06,5,57.622,23.552101,87.28978,58.06,NaN,12.1,17.290323,280,16 / 37,55002,2020-02-14 12:44:47:460
-0.1827,6.7126,7.8882,0.0695,6.537,7.3098,0.3762,0.3677,0.1443,-0.0852,0.0072,0.0985,4665,16.25,-41,-24.61,229.11,-41.92,0.28,5,58.689,23.552101,87.28978,58.06,NaN,12.1,17.290323,280,16 / 37,55504,2020-02-14 12:44:47:962
-0.0617,5.7682,7.5674,0.3823,6.4582,7.3699,0.1195,-0.7018,-0.2688,0.0404,0.0191,0.1506,4858,15.51,-43.08,-23.96,225.17,-41.19,-2.97,5,59.619,23.552109,87.28976,58.06,NaN,9.43,13.832258,286.9,22 / 37,56003,2020-02-14 12:44:48:461
1.6997,5.9132,6.4127,0.4384,6.3102,7.494,-0.3726,-0.5987,0.7997,-0.0016,-0.0597,-0.0484,5136,15.45,-43.19,-24.2,222.25,-40.15,-3.17,5,57.006,23.552109,87.28976,58.06,NaN,9.43,13.832258,286.9,22 / 37,56502,2020-02-14 12:44:48:960
1.1638,6.3354,5.5607,0.68,6.1613,7.5991,0.2331,-0.2735,0.4478,0.0725,-0.01,-0.0075,5117,14.44,-43.16,-24.85,220.63,-38.6,-5.1,5,56.492,23.552116,87.28974,54.84,NaN,4.61,10.374194,286.8,24 / 37,57002,2020-02-14 12:44:49:460
0.3181,6.9392,7.3829,0.5483,6.2595,7.5291,0.1046,0.2291,0.2403,0.0151,0.0456,-0.0788,5451,15.18,-43.03,-24.33,222.05,-39.66,-4.16,5,54.566,23.552116,87.28974,54.84,NaN,4.61,10.374194,286.8,24 / 37,57503,2020-02-14 12:44:49:961
0.3299,6.7283,7.7393,0.395,6.3799,7.4371,0.4537,0.5193,0.1366,0.0188,0.0468,0.0486,5298,15.52,-42.75,-23.98,223.89,-40.38,-2.37,5,54.216,23.552109,87.28974,54.84,NaN,0,10.374194,,25 / 37,58003,2020-02-14 12:44:50:461
0.5545,7.2543,5.8857,0.4893,6.3652,7.4442,-0.3774,0.3303,-0.8059,0.0261,0.0228,0.038,4132,15,-42.77,-24.36,223.1,-40.71,-3.49,5,57.066,23.552109,87.28974,54.84,NaN,0,10.374194,,25 / 37,58502,2020-02-14 12:44:50:960
0.6956,6.671,7.0631,0.5234,6.4473,7.3708,0.0424,0.244,-0.3016,0.0101,0.014,-0.0169,3955,14.86,-43.1,-24.28,223.71,-40.99,-4.15,5,38.538,23.552109,87.28974,54.84,NaN,0,10.374194,,25 / 37,59002,2020-02-14 12:44:51:460
